"acc","accuracy","average_response_time","avg_rt","background","canvas_backend","clock_backend","color_backend","compensation","coordinates","correct","correct_instructions","correct_response","correct_response_1","count_Conditioning_1_2","count_MEMO","count_conditions","count_correctanswer","count_counter1_1_1","count_counter2_2_1","count_experiment","count_fixation_cross","count_instructions","count_iti_n_imageposition","count_keepitup","count_logger_dec_2","count_loop","count_new_reset_feedback_1_2","count_response_1","count_sequence","count_stims","counter","datetime","description","disable_garbage_collection","dur","experiment_file","experiment_path","font_bold","font_family","font_italic","font_size","font_underline","foreground","form_clicks","fullscreen","height","keyboard_backend","live_row","live_row_MEMO","logfile","mouse_backend","old","opensesame_codename","opensesame_version","pos1","pos2","pp","repeat_cycle","response","response_instructions","response_response_1","response_time","response_time_instructions","response_time_response_1","round_decimals","sampler_backend","sound_buf_size","sound_channels","sound_freq","sound_sample_size","start","stim1","stim2","subject_nr","subject_parity","t1","time_Conditioning_1_2","time_MEMO","time_conditions","time_correctanswer","time_counter1_1_1","time_counter2_2_1","time_experiment","time_fixation_cross","time_instructions","time_iti_n_imageposition","time_keepitup","time_logger_dec_2","time_loop","time_new_reset_feedback_1_2","time_response_1","time_sequence","time_stims","title","total_correct","total_response_time","total_responses","uniform_coordinates","width"
"0","0","984.9009999888949","984.9009999888949","white","psycho","psycho","psycho","0","uniform","0","undefined","left","0","NA","0","0","0","NA","NA","0","0","0","0","0","0","NA","NA","0","0","0","NA","Mon Feb 21 17:44:26 2022","The main experiment item","yes","2128.6740193486003","Memo_alone.osexp","D:\Users\install\SemLink","no","mono","no","18","no","black","no","no","768","psycho","0","0","D:\Users\install\SemLink\quickrun.csv","psycho","0","Lentiform Loewenfeld","3.3.10","256","-256","2","0","right","right","right","984.9009999888949","570.2491999836639","984.9009999888949","2","psycho","1024","2","48000","-16","experiment","hardhat02.jpg","k_kitchen_IMG_3734.jpg","999","odd","You need to indicate whether the pairing is old (seen in the first phase) by pressing RIGHT, or if it is a different configuration by pressing LEFT.<br />In other words, press RIGHT if you recognize the association, and select LEFT if you don't.","NA","8675.519299984444","7694.76179999765","8935.812799958512","NA","NA","7694.6098000044","8954.52089997707","8104.092399997171","8935.77619997086","12088.74159998959","13600.001999991946","NA","NA","11102.588000008836","8934.479999996256","11102.173199993558","Semantic link","0","984.9009999888949","1","yes","1024"
"0","0","1120.0573999958578","1120.0573999958578","white","psycho","psycho","psycho","0","uniform","0","undefined","left","0","NA","0","0","1","NA","NA","0","1","0","1","1","1","NA","NA","1","1","1","NA","Mon Feb 21 17:44:26 2022","The main experiment item","yes","1906.479881487379","Memo_alone.osexp","D:\Users\install\SemLink","no","mono","no","18","no","black","no","no","768","psycho","1","1","D:\Users\install\SemLink\quickrun.csv","psycho","0","Lentiform Loewenfeld","3.3.10","256","-256","2","0","right","right","right","1255.2138000028208","570.2491999836639","1255.2138000028208","2","psycho","1024","2","48000","-16","experiment","television.jpg","d_dining_room_indoor_0582.jpg","999","odd","You need to indicate whether the pairing is old (seen in the first phase) by pressing RIGHT, or if it is a different configuration by pressing LEFT.<br />In other words, press RIGHT if you recognize the association, and select LEFT if you don't.","NA","8675.519299984444","7694.76179999765","13924.921099969652","NA","NA","7694.6098000044","13933.331799984444","8104.092399997171","13924.864900007378","17177.293999993708","18417.651599971578","NA","NA","15921.597099979408","13924.776599975303","15921.05810000794","Semantic link","0","2240.1147999917157","2","yes","1024"
"33.333333333333336","33.333333333333336","1295.0176000013016","1295.0176000013016","white","psycho","psycho","psycho","0","uniform","1","undefined","right","1","NA","0","0","2","NA","NA","0","2","0","2","2","2","NA","NA","2","2","2","NA","Mon Feb 21 17:44:26 2022","The main experiment item","yes","1777.0775912307722","Memo_alone.osexp","D:\Users\install\SemLink","no","mono","no","18","no","black","no","no","768","psycho","2","2","D:\Users\install\SemLink\quickrun.csv","psycho","1","Lentiform Loewenfeld","3.3.10","256","-256","2","0","right","right","right","1644.9380000121891","570.2491999836639","1644.9380000121891","2","psycho","1024","2","48000","-16","experiment","webcam.jpg","o_office_despacho.jpg","999","odd","You need to indicate whether the pairing is old (seen in the first phase) by pressing RIGHT, or if it is a different configuration by pressing LEFT.<br />In other words, press RIGHT if you recognize the association, and select LEFT if you don't.","NA","8675.519299984444","7694.76179999765","18720.012100005988","NA","NA","7694.6098000044","18731.70329997083","8104.092399997171","18719.99059995869","22174.88909995882","23027.054100006353","NA","NA","20529.007799981628","18719.9210000108","20528.55250000721","Semantic link","1","3885.052800003905","3","yes","1024"
"50","50","1262.4790000118082","1262.4790000118082","white","psycho","psycho","psycho","0","uniform","1","undefined","right","1","NA","0","0","3","NA","NA","0","3","0","3","3","3","NA","NA","3","3","3","NA","Mon Feb 21 17:44:26 2022","The main experiment item","yes","1949.5863566495805","Memo_alone.osexp","D:\Users\install\SemLink","no","mono","no","18","no","black","no","no","768","psycho","3","3","D:\Users\install\SemLink\quickrun.csv","psycho","1","Lentiform Loewenfeld","3.3.10","-256","256","2","0","right","right","right","1164.863200043328","570.2491999836639","1164.863200043328","2","psycho","1024","2","48000","-16","experiment","rainboot.jpg","courtroomCC.jpg","999","odd","You need to indicate whether the pairing is old (seen in the first phase) by pressing RIGHT, or if it is a different configuration by pressing LEFT.<br />In other words, press RIGHT if you recognize the association, and select LEFT if you don't.","NA","8675.519299984444","7694.76179999765","23441.69119995786","NA","NA","7694.6098000044","23461.26169996569","8104.092399997171","23441.669499967247","26591.66889998596","27922.876900003757","NA","NA","25425.630999961868","23441.59890001174","25425.449899979867","Semantic link","2","5049.916000047233","4","yes","1024"
"60","60","1297.516080015339","1297.516080015339","white","psycho","psycho","psycho","0","uniform","1","undefined","right","1","NA","0","0","4","NA","NA","0","4","0","4","4","4","NA","NA","4","4","4","NA","Mon Feb 21 17:44:26 2022","The main experiment item","yes","1731.8280077715249","Memo_alone.osexp","D:\Users\install\SemLink","no","mono","no","18","no","black","no","no","768","psycho","4","4","D:\Users\install\SemLink\quickrun.csv","psycho","1","Lentiform Loewenfeld","3.3.10","-256","256","2","0","right","right","right","1437.6644000294618","570.2491999836639","1437.6644000294618","2","psycho","1024","2","48000","-16","experiment","treadmill.jpg","c_castle_castle_000001.jpg","999","odd","You need to indicate whether the pairing is old (seen in the first phase) by pressing RIGHT, or if it is a different configuration by pressing LEFT.<br />In other words, press RIGHT if you recognize the association, and select LEFT if you don't.","NA","8675.519299984444","7694.76179999765","28230.202800012194","NA","NA","7694.6098000044","28239.969299989752","8104.092399997171","28230.18069996033","31426.67730001267","32485.068699985277","NA","NA","29987.611799966544","28230.10639997665","29987.415099982172","Semantic link","3","6487.580400076695","5","yes","1024"
"66.66666666666667","66.66666666666667","1257.7329500054475","1257.7329500054475","white","psycho","psycho","psycho","0","uniform","1","undefined","right","1","NA","0","0","5","NA","NA","0","5","0","5","5","5","NA","NA","5","5","5","NA","Mon Feb 21 17:44:26 2022","The main experiment item","yes","2059.933049181218","Memo_alone.osexp","D:\Users\install\SemLink","no","mono","no","18","no","black","no","no","768","psycho","5","5","D:\Users\install\SemLink\quickrun.csv","psycho","1","Lentiform Loewenfeld","3.3.10","-256","256","2","0","right","right","right","1058.8172999559902","570.2491999836639","1058.8172999559902","2","psycho","1024","2","48000","-16","experiment","bowlingpin.jpg","b_bedroom_pittsburgh_IMG_4079.jpg","999","odd","You need to indicate whether the pairing is old (seen in the first phase) by pressing RIGHT, or if it is a different configuration by pressing LEFT.<br />In other words, press RIGHT if you recognize the association, and select LEFT if you don't.","NA","8675.519299984444","7694.76179999765","32866.88049999066","NA","NA","7694.6098000044","32886.473999999","8104.092399997171","32866.855299973395","36026.110799983144","37463.08869996574","NA","NA","34966.6864000028","32866.515600006096","34966.2449999596","Semantic link","4","7546.397700032685","6","yes","1024"
"71.42857142857143","71.42857142857143","1216.1406142903227","1216.1406142903227","white","psycho","psycho","psycho","0","uniform","1","undefined","right","1","NA","0","0","6","NA","NA","0","6","0","6","6","6","NA","NA","6","6","6","NA","Mon Feb 21 17:44:26 2022","The main experiment item","yes","1824.2042703330123","Memo_alone.osexp","D:\Users\install\SemLink","no","mono","no","18","no","black","no","no","768","psycho","6","6","D:\Users\install\SemLink\quickrun.csv","psycho","1","Lentiform Loewenfeld","3.3.10","-256","256","2","0","right","right","right","966.5865999995731","570.2491999836639","966.5865999995731","2","psycho","1024","2","48000","-16","experiment","trafficlight.jpg","Farm_Kartoffelfeld_SchwedenCC.jpg","999","odd","You need to indicate whether the pairing is old (seen in the first phase) by pressing RIGHT, or if it is a different configuration by pressing LEFT.<br />In other words, press RIGHT if you recognize the association, and select LEFT if you don't.","NA","8675.519299984444","7694.76179999765","37858.39680000208","NA","NA","7694.6098000044","37881.7617999739","8104.092399997171","37858.37520001223","40696.6839999659","42225.61009996571","NA","NA","39729.58300000755","37858.30399999395","39729.194100014865","Semantic link","5","8512.984300032258","7","yes","1024"
"75","75","1234.9357750063064","1234.9357750063064","white","psycho","psycho","psycho","0","uniform","1","undefined","left","1","NA","0","0","7","NA","NA","0","7","0","7","7","7","NA","NA","7","7","7","NA","Mon Feb 21 17:44:26 2022","The main experiment item","yes","2362.4350201668235","Memo_alone.osexp","D:\Users\install\SemLink","no","mono","no","18","no","black","no","no","768","psycho","7","7","D:\Users\install\SemLink\quickrun.csv","psycho","0","Lentiform Loewenfeld","3.3.10","-256","256","2","0","left","right","left","1366.5019000181928","570.2491999836639","1366.5019000181928","2","psycho","1024","2","48000","-16","experiment","tennisracket.jpg","c_castle_castle_000001.jpg","999","odd","You need to indicate whether the pairing is old (seen in the first phase) by pressing RIGHT, or if it is a different configuration by pressing LEFT.<br />In other words, press RIGHT if you recognize the association, and select LEFT if you don't.","NA","8675.519299984444","7694.76179999765","42620.60640001437","NA","NA","7694.6098000044","42644.48540000012","8104.092399997171","42620.58369995793","46391.061100002844","47520.55909996852","NA","NA","45024.113499966916","42620.50530000124","45023.97509996081","Semantic link","6","9879.48620005045","8","yes","1024"
"77.77777777777777","77.77777777777777","1180.8793222298846","1180.8793222298846","white","psycho","psycho","psycho","0","uniform","1","undefined","right","1","NA","0","0","8","NA","NA","0","8","0","8","8","8","NA","NA","8","8","8","NA","Mon Feb 21 17:44:26 2022","The main experiment item","yes","1859.9652756306148","Memo_alone.osexp","D:\Users\install\SemLink","no","mono","no","18","no","black","no","no","768","psycho","8","8","D:\Users\install\SemLink\quickrun.csv","psycho","1","Lentiform Loewenfeld","3.3.10","256","-256","2","0","right","right","right","748.4277000185102","570.2491999836639","748.4277000185102","2","psycho","1024","2","48000","-16","experiment","downhillski.jpg","mountain-snow-walking-snow-mountain-winter-landscapeCC.jpg","999","odd","You need to indicate whether the pairing is old (seen in the first phase) by pressing RIGHT, or if it is a different configuration by pressing LEFT.<br />In other words, press RIGHT if you recognize the association, and select LEFT if you don't.","NA","8675.519299984444","7694.76179999765","47872.83519998891","NA","NA","7694.6098000044","47890.48699999694","8104.092399997171","47872.807800013106","50519.61239997763","52266.07209997019","NA","NA","49770.44539997587","47872.74049996631","49769.922200008295","Semantic link","7","10627.913900068961","9","yes","1024"
"80","80","1209.3837000022177","1209.3837000022177","white","psycho","psycho","psycho","0","uniform","1","undefined","left","1","NA","0","0","9","NA","NA","0","9","0","9","9","9","NA","NA","9","9","9","NA","Mon Feb 21 17:44:26 2022","The main experiment item","yes","1941.8494047742456","Memo_alone.osexp","D:\Users\install\SemLink","no","mono","no","18","no","black","no","no","768","psycho","9","9","D:\Users\install\SemLink\quickrun.csv","psycho","0","Lentiform Loewenfeld","3.3.10","-256","256","2","0","left","right","left","1465.9230999532156","570.2491999836639","1465.9230999532156","2","psycho","1024","2","48000","-16","experiment","cookingpot.jpg","l_living_room_living53.jpg","999","odd","You need to indicate whether the pairing is old (seen in the first phase) by pressing RIGHT, or if it is a different configuration by pressing LEFT.<br />In other words, press RIGHT if you recognize the association, and select LEFT if you don't.","NA","8675.519299984444","7694.76179999765","52663.45849999925","NA","NA","7694.6098000044","52685.67380000604","8104.092399997171","52663.43349998351","56116.45520001184","57146.42050000839","NA","NA","54649.90640000906","52663.3611000143","54649.45369999623","Semantic link","8","12093.837000022177","10","yes","1024"
"81.81818181818181","81.81818181818181","1197.4925545509905","1197.4925545509905","white","psycho","psycho","psycho","0","uniform","1","undefined","right","1","NA","0","0","10","NA","NA","0","10","0","10","10","10","NA","NA","10","10","10","NA","Mon Feb 21 17:44:26 2022","The main experiment item","yes","2121.328718434604","Memo_alone.osexp","D:\Users\install\SemLink","no","mono","no","18","no","black","no","no","768","psycho","10","10","D:\Users\install\SemLink\quickrun.csv","psycho","1","Lentiform Loewenfeld","3.3.10","256","-256","2","0","right","right","right","1078.5811000387184","570.2491999836639","1078.5811000387184","2","psycho","1024","2","48000","-16","experiment","lawnmower.jpg","g_garden_1280_2.jpg","999","odd","You need to indicate whether the pairing is old (seen in the first phase) by pressing RIGHT, or if it is a different configuration by pressing LEFT.<br />In other words, press RIGHT if you recognize the association, and select LEFT if you don't.","NA","8675.519299984444","7694.76179999765","57553.22739999974","NA","NA","7694.6098000044","57564.67689998681","8104.092399997171","57553.2067999593","60774.6072000009","62191.54929998331","NA","NA","59695.00949996291","57553.13479999313","59694.73079999443","Semantic link","9","13172.418100060895","11","yes","1024"
"83.33333333333333","83.33333333333333","1202.203666670054","1202.203666670054","white","psycho","psycho","psycho","0","uniform","1","undefined","right","1","NA","0","0","11","NA","NA","0","11","0","11","11","11","NA","NA","11","11","11","NA","Mon Feb 21 17:44:26 2022","The main experiment item","yes","1904.6260869508155","Memo_alone.osexp","D:\Users\install\SemLink","no","mono","no","18","no","black","no","no","768","psycho","11","11","D:\Users\install\SemLink\quickrun.csv","psycho","1","Lentiform Loewenfeld","3.3.10","256","-256","2","0","right","right","right","1254.0258999797516","570.2491999836639","1254.0258999797516","2","psycho","1024","2","48000","-16","experiment","hardhat02.jpg","d_dining_room_indoor_0582.jpg","999","odd","You need to indicate whether the pairing is old (seen in the first phase) by pressing RIGHT, or if it is a different configuration by pressing LEFT.<br />In other words, press RIGHT if you recognize the association, and select LEFT if you don't.","NA","8675.519299984444","7694.76179999765","62569.34479996562","NA","NA","7694.6098000044","62593.67669996573","8104.092399997171","62569.32319997577","65761.92249997985","67003.45650000963","NA","NA","64507.3556000134","62569.253299967386","64507.228299975395","Semantic link","10","14426.444000040647","12","yes","1024"
"84.61538461538461","84.61538461538461","1189.032738464168","1189.032738464168","white","psycho","psycho","psycho","0","uniform","1","undefined","right","1","NA","0","0","12","NA","NA","0","12","0","12","12","12","NA","NA","12","12","12","NA","Mon Feb 21 17:44:26 2022","The main experiment item","yes","1914.6660428784637","Memo_alone.osexp","D:\Users\install\SemLink","no","mono","no","18","no","black","no","no","768","psycho","12","12","D:\Users\install\SemLink\quickrun.csv","psycho","1","Lentiform Loewenfeld","3.3.10","-256","256","2","0","right","right","right","1030.981599993538","570.2491999836639","1030.981599993538","2","psycho","1024","2","48000","-16","experiment","martiniglass01b.jpg","c_classroom_sala02.jpg","999","odd","You need to indicate whether the pairing is old (seen in the first phase) by pressing RIGHT, or if it is a different configuration by pressing LEFT.<br />In other words, press RIGHT if you recognize the association, and select LEFT if you don't.","NA","8675.519299984444","7694.76179999765","67359.09400001401","NA","NA","7694.6098000044","67372.7037999779","8104.092399997171","67359.06479996629","70334.97989998432","71799.80219999561","NA","NA","69303.45339997439","67358.99410001002","69303.24799998198","Semantic link","11","15457.425600034185","13","yes","1024"
"78.57142857142857","78.57142857142857","1282.3194142880052","1282.3194142880052","white","psycho","psycho","psycho","0","uniform","0","undefined","left","0","NA","0","0","13","NA","NA","0","13","0","13","13","13","NA","NA","13","13","13","NA","Mon Feb 21 17:44:26 2022","The main experiment item","yes","1990.4312798921922","Memo_alone.osexp","D:\Users\install\SemLink","no","mono","no","18","no","black","no","no","768","psycho","13","13","D:\Users\install\SemLink\quickrun.csv","psycho","0","Lentiform Loewenfeld","3.3.10","-256","256","2","0","None","right","None","2495.046199997887","570.2491999836639","2495.046199997887","2","psycho","1024","2","48000","-16","experiment","rainboot.jpg","Tennis_CourtCC.jpg","999","odd","You need to indicate whether the pairing is old (seen in the first phase) by pressing RIGHT, or if it is a different configuration by pressing LEFT.<br />In other words, press RIGHT if you recognize the association, and select LEFT if you don't.","NA","8675.519299984444","7694.76179999765","72213.11319997767","NA","NA","7694.6098000044","72236.48139997385","8104.092399997171","72213.08949997183","76744.1061999998","76744.1758000059","NA","NA","74248.83669998962","72212.97739999136","74248.44080000184","Semantic link","11","17952.47180003207","14","yes","1024"
"80","80","1307.503793334278","1307.503793334278","white","psycho","psycho","psycho","0","uniform","1","undefined","left","1","NA","0","0","14","NA","NA","0","14","0","14","14","14","NA","NA","14","14","14","NA","Mon Feb 21 17:44:26 2022","The main experiment item","yes","2053.455799508679","Memo_alone.osexp","D:\Users\install\SemLink","no","mono","no","18","no","black","no","no","768","psycho","14","14","D:\Users\install\SemLink\quickrun.csv","psycho","0","Lentiform Loewenfeld","3.3.10","-256","256","2","0","left","right","left","1660.0850999820977","570.2491999836639","1660.0850999820977","2","psycho","1024","2","48000","-16","experiment","callbell.jpg","c_classroom_sala02.jpg","999","odd","You need to indicate whether the pairing is old (seen in the first phase) by pressing RIGHT, or if it is a different configuration by pressing LEFT.<br />In other words, press RIGHT if you recognize the association, and select LEFT if you don't.","NA","8675.519299984444","7694.76179999765","77173.64689998794","NA","NA","7694.6098000044","77197.80500000343","8104.092399997171","77173.62509999657","80922.37119999481","81757.89040001109","NA","NA","79261.37480000034","77173.5468999832","79261.24019996496","Semantic link","12","19612.55690001417","15","yes","1024"
"81.25","81.25","1318.0961562538869","1318.0961562538869","white","psycho","psycho","psycho","0","uniform","1","undefined","left","1","NA","0","0","15","NA","NA","0","15","0","15","15","15","NA","NA","15","15","15","NA","Mon Feb 21 17:44:26 2022","The main experiment item","yes","1851.5924672545661","Memo_alone.osexp","D:\Users\install\SemLink","no","mono","no","18","no","black","no","no","768","psycho","15","15","D:\Users\install\SemLink\quickrun.csv","psycho","0","Lentiform Loewenfeld","3.3.10","256","-256","2","0","left","right","left","1476.9816000480205","570.2491999836639","1476.9816000480205","2","psycho","1024","2","48000","-16","experiment","downhillski.jpg","courtroomCC.jpg","999","odd","You need to indicate whether the pairing is old (seen in the first phase) by pressing RIGHT, or if it is a different configuration by pressing LEFT.<br />In other words, press RIGHT if you recognize the association, and select LEFT if you don't.","NA","8675.519299984444","7694.76179999765","82145.42640000582","NA","NA","7694.6098000044","82159.97109998716","8104.092399997171","82145.36799996858","85501.66740000714","86520.63619997352","NA","NA","84023.79179996205","82145.27390000876","84023.67739996407","Semantic link","13","21089.53850006219","16","yes","1024"
"76.47058823529412","76.47058823529412","1387.3283000019214","1387.3283000019214","white","psycho","psycho","psycho","0","uniform","0","undefined","right","0","NA","0","0","16","NA","NA","0","16","0","16","16","16","NA","NA","16","16","16","NA","Mon Feb 21 17:44:26 2022","The main experiment item","yes","1726.4049517965573","Memo_alone.osexp","D:\Users\install\SemLink","no","mono","no","18","no","black","no","no","768","psycho","16","16","D:\Users\install\SemLink\quickrun.csv","psycho","1","Lentiform Loewenfeld","3.3.10","-256","256","2","0","None","right","None","2495.042599970475","570.2491999836639","2495.042599970475","2","psycho","1024","2","48000","-16","experiment","television.jpg","l_living_room_living53.jpg","999","odd","You need to indicate whether the pairing is old (seen in the first phase) by pressing RIGHT, or if it is a different configuration by pressing LEFT.<br />In other words, press RIGHT if you recognize the association, and select LEFT if you don't.","NA","8675.519299984444","7694.76179999765","86981.58949997742","NA","NA","7694.6098000044","87005.78529998893","8104.092399997171","86981.56629997538","91249.27809997462","91249.35220001498","NA","NA","88753.91279999167","86981.48519999813","88753.42019996606","Semantic link","13","23584.581100032665","17","yes","1024"
"77.77777777777777","77.77777777777777","1368.582327782254","1368.582327782254","white","psycho","psycho","psycho","0","uniform","1","undefined","left","1","NA","0","0","17","NA","NA","0","17","0","17","17","17","NA","NA","17","17","17","NA","Mon Feb 21 17:44:26 2022","The main experiment item","yes","2260.2230104815803","Memo_alone.osexp","D:\Users\install\SemLink","no","mono","no","18","no","black","no","no","768","psycho","17","17","D:\Users\install\SemLink\quickrun.csv","psycho","0","Lentiform Loewenfeld","3.3.10","-256","256","2","0","left","right","left","1049.900800047908","570.2491999836639","1049.900800047908","2","psycho","1024","2","48000","-16","experiment","webcam.jpg","Stavronikita_BeachCC.jpg","999","odd","You need to indicate whether the pairing is old (seen in the first phase) by pressing RIGHT, or if it is a different configuration by pressing LEFT.<br />In other words, press RIGHT if you recognize the association, and select LEFT if you don't.","NA","8675.519299984444","7694.76179999765","91664.9413999985","NA","NA","7694.6098000044","91685.10239996249","8104.092399997171","91664.91960000712","95016.24590001302","96462.78130001156","NA","NA","93965.74039995903","91664.83849997167","93965.16809996683","Semantic link","14","24634.481900080573","18","yes","1024"
"78.94736842105263","78.94736842105263","1358.9237947415218","1358.9237947415218","white","psycho","psycho","psycho","0","uniform","1","undefined","right","1","NA","0","0","18","NA","NA","0","18","0","18","18","18","NA","NA","18","18","18","NA","Mon Feb 21 17:44:26 2022","The main experiment item","yes","2013.7443264087442","Memo_alone.osexp","D:\Users\install\SemLink","no","mono","no","18","no","black","no","no","768","psycho","18","18","D:\Users\install\SemLink\quickrun.csv","psycho","1","Lentiform Loewenfeld","3.3.10","256","-256","2","0","right","right","right","1185.0702000083402","570.2491999836639","1185.0702000083402","2","psycho","1024","2","48000","-16","experiment","cookingpot.jpg","k_kitchen_IMG_3734.jpg","999","odd","You need to indicate whether the pairing is old (seen in the first phase) by pressing RIGHT, or if it is a different configuration by pressing LEFT.<br />In other words, press RIGHT if you recognize the association, and select LEFT if you don't.","NA","8675.519299984444","7694.76179999765","96887.08570000017","NA","NA","7694.6098000044","96896.94299997063","8104.092399997171","96887.0631000027","100113.48679999355","101423.62720001256","NA","NA","98927.09289997583","96886.98999996996","98926.94119998487","Semantic link","15","25819.552100088913","19","yes","1024"
"75","75","1375.333000003593","1375.333000003593","white","psycho","psycho","psycho","0","uniform","0","undefined","left","0","NA","0","0","19","NA","NA","0","19","0","19","19","19","NA","NA","19","19","19","NA","Mon Feb 21 17:44:26 2022","The main experiment item","yes","1925.6403580684298","Memo_alone.osexp","D:\Users\install\SemLink","no","mono","no","18","no","black","no","no","768","psycho","19","19","D:\Users\install\SemLink\quickrun.csv","psycho","0","Lentiform Loewenfeld","3.3.10","-256","256","2","0","right","right","right","1687.1078999829479","570.2491999836639","1687.1078999829479","2","psycho","1024","2","48000","-16","experiment","electrictoothbrush01c.jpg","Farm_Kartoffelfeld_SchwedenCC.jpg","999","odd","You need to indicate whether the pairing is old (seen in the first phase) by pressing RIGHT, or if it is a different configuration by pressing LEFT.<br />In other words, press RIGHT if you recognize the association, and select LEFT if you don't.","NA","8675.519299984444","7694.76179999765","101850.34399997676","NA","NA","7694.6098000044","101876.19959999574","8104.092399997171","101850.29759997269","105517.388999986","106325.76019997941","NA","NA","103829.67479998479","101850.13189999154","103829.36759997392","Semantic link","15","27506.66000007186","20","yes","1024"
"76.19047619047619","76.19047619047619","1368.5121285767916","1368.5121285767916","white","psycho","psycho","psycho","0","uniform","1","undefined","left","1","NA","0","0","20","NA","NA","0","20","0","20","20","20","NA","NA","20","20","20","NA","Mon Feb 21 17:44:26 2022","The main experiment item","yes","2033.659877721956","Memo_alone.osexp","D:\Users\install\SemLink","no","mono","no","18","no","black","no","no","768","psycho","20","20","D:\Users\install\SemLink\quickrun.csv","psycho","0","Lentiform Loewenfeld","3.3.10","256","-256","2","0","left","right","left","1232.0947000407614","570.2491999836639","1232.0947000407614","2","psycho","1024","2","48000","-16","experiment","lawnmower.jpg","o_office_despacho.jpg","999","odd","You need to indicate whether the pairing is old (seen in the first phase) by pressing RIGHT, or if it is a different configuration by pressing LEFT.<br />In other words, press RIGHT if you recognize the association, and select LEFT if you don't.","NA","8675.519299984444","7694.76179999765","106719.90049997112","NA","NA","7694.6098000044","106739.85750001157","8104.092399997171","106719.8782999767","110018.39559996733","111281.04520001216","NA","NA","108785.38189997198","106719.80580000672","108785.2203999646","Semantic link","16","28738.754700112622","21","yes","1024"
"77.27272727272727","77.27272727272727","1376.8848136400761","1376.8848136400761","white","psycho","psycho","psycho","0","uniform","1","undefined","right","1","NA","0","0","21","NA","NA","0","21","0","21","21","21","NA","NA","21","21","21","NA","Mon Feb 21 17:44:26 2022","The main experiment item","yes","1751.101940949667","Memo_alone.osexp","D:\Users\install\SemLink","no","mono","no","18","no","black","no","no","768","psycho","21","21","D:\Users\install\SemLink\quickrun.csv","psycho","1","Lentiform Loewenfeld","3.3.10","-256","256","2","0","right","right","right","1552.7111999690533","570.2491999836639","1552.7111999690533","2","psycho","1024","2","48000","-16","experiment","callbell.jpg","s_savanna_kiangwest_savanna.jpg","999","odd","You need to indicate whether the pairing is old (seen in the first phase) by pressing RIGHT, or if it is a different configuration by pressing LEFT.<br />In other words, press RIGHT if you recognize the association, and select LEFT if you don't.","NA","8675.519299984444","7694.76179999765","112002.30359996203","NA","NA","7694.6098000044","112019.00779997231","8104.092399997171","112002.28239997523","115334.80000001146","116284.31429999182","NA","NA","113781.28029999789","112002.2058999748","113781.1169999768","Semantic link","17","30291.465900081675","22","yes","1024"
"78.26086956521739","78.26086956521739","1350.6582826122885","1350.6582826122885","white","psycho","psycho","psycho","0","uniform","1","undefined","right","1","NA","0","0","22","NA","NA","0","22","0","22","22","22","NA","NA","22","22","22","NA","Mon Feb 21 17:44:26 2022","The main experiment item","yes","1791.521925933618","Memo_alone.osexp","D:\Users\install\SemLink","no","mono","no","18","no","black","no","no","768","psycho","22","22","D:\Users\install\SemLink\quickrun.csv","psycho","1","Lentiform Loewenfeld","3.3.10","256","-256","2","0","right","right","right","773.6746000009589","570.2491999836639","773.6746000009589","2","psycho","1024","2","48000","-16","experiment","tennisracket.jpg","Tennis_CourtCC.jpg","999","odd","You need to indicate whether the pairing is old (seen in the first phase) by pressing RIGHT, or if it is a different configuration by pressing LEFT.<br />In other words, press RIGHT if you recognize the association, and select LEFT if you don't.","NA","8675.519299984444","7694.76179999765","116651.5147999744","NA","NA","7694.6098000044","116663.14429999329","8104.092399997171","116651.49439999368","119251.96999998298","120973.98569999496","NA","NA","118477.51029999927","116651.42479998758","118477.16929996386","Semantic link","18","31065.140500082634","23","yes","1024"
"75","75","1324.0031125048215","1324.0031125048215","white","psycho","psycho","psycho","0","uniform","0","undefined","left","0","NA","0","0","23","NA","NA","0","23","0","23","23","23","NA","NA","23","23","23","NA","Mon Feb 21 17:44:26 2022","The main experiment item","yes","2296.096994022921","Memo_alone.osexp","D:\Users\install\SemLink","no","mono","no","18","no","black","no","no","768","psycho","23","23","D:\Users\install\SemLink\quickrun.csv","psycho","0","Lentiform Loewenfeld","3.3.10","-256","256","2","0","right","right","right","710.9342000330798","570.2491999836639","710.9342000330798","2","psycho","1024","2","48000","-16","experiment","beachumbrella01.jpg","g_garden_1280_2.jpg","999","odd","You need to indicate whether the pairing is old (seen in the first phase) by pressing RIGHT, or if it is a different configuration by pressing LEFT.<br />In other words, press RIGHT if you recognize the association, and select LEFT if you don't.","NA","8675.519299984444","7694.76179999765","121410.32989998348","NA","NA","7694.6098000044","121425.7483999827","8104.092399997171","121410.30980000505","124451.67859998764","126236.35179997655","NA","NA","123739.98989997199","121410.22979997797","123739.48539997218","Semantic link","18","31776.074700115714","24","yes","1024"
"76","76","1299.3606920028105","1299.3606920028105","white","psycho","psycho","psycho","0","uniform","1","undefined","right","1","NA","0","0","24","NA","NA","0","24","0","24","24","24","NA","NA","24","24","24","NA","Mon Feb 21 17:44:26 2022","The main experiment item","yes","2152.2104447342235","Memo_alone.osexp","D:\Users\install\SemLink","no","mono","no","18","no","black","no","no","768","psycho","24","24","D:\Users\install\SemLink\quickrun.csv","psycho","1","Lentiform Loewenfeld","3.3.10","-256","256","2","0","right","right","right","707.9425999545492","570.2491999836639","707.9425999545492","2","psycho","1024","2","48000","-16","experiment","electrictoothbrush01c.jpg","b_bathroom_bothroom99.jpg","999","odd","You need to indicate whether the pairing is old (seen in the first phase) by pressing RIGHT, or if it is a different configuration by pressing LEFT.<br />In other words, press RIGHT if you recognize the association, and select LEFT if you don't.","NA","8675.519299984444","7694.76179999765","126643.23539996985","NA","NA","7694.6098000044","126654.4075999991","8104.092399997171","126643.21419998305","129526.55169996433","131315.03649998922","NA","NA","128817.80590000562","126643.14409997314","128817.6439999952","Semantic link","19","32484.017300070263","25","yes","1024"
"73.07692307692308","73.07692307692308","1345.3477461567113","1345.3477461567113","white","psycho","psycho","psycho","0","uniform","0","undefined","left","0","NA","0","0","25","NA","NA","0","25","0","25","25","25","NA","NA","25","25","25","NA","Mon Feb 21 17:44:26 2022","The main experiment item","yes","2167.3551988933687","Memo_alone.osexp","D:\Users\install\SemLink","no","mono","no","18","no","black","no","no","768","psycho","25","25","D:\Users\install\SemLink\quickrun.csv","psycho","0","Lentiform Loewenfeld","3.3.10","256","-256","2","0","None","right","None","2495.0241000042297","570.2491999836639","2495.0241000042297","2","psycho","1024","2","48000","-16","experiment","treadmill.jpg","r_railroad_tunnel_outdoor_railroad_tunnel_000128.jpg","999","odd","You need to indicate whether the pairing is old (seen in the first phase) by pressing RIGHT, or if it is a different configuration by pressing LEFT.<br />In other words, press RIGHT if you recognize the association, and select LEFT if you don't.","NA","8675.519299984444","7694.76179999765","131976.99339996325","NA","NA","7694.6098000044","132000.3842000151","8104.092399997171","131976.9368999987","136674.97369996272","136675.0438999734","NA","NA","134179.6866999939","131976.7384000006","134179.56029996276","Semantic link","19","34979.04140007449","26","yes","1024"
"74.07407407407408","74.07407407407408","1346.5734185215465","1346.5734185215465","white","psycho","psycho","psycho","0","uniform","1","undefined","left","1","NA","0","0","26","NA","NA","0","26","0","26","26","26","NA","NA","26","26","26","NA","Mon Feb 21 17:44:26 2022","The main experiment item","yes","2034.0795927251297","Memo_alone.osexp","D:\Users\install\SemLink","no","mono","no","18","no","black","no","no","768","psycho","26","26","D:\Users\install\SemLink\quickrun.csv","psycho","0","Lentiform Loewenfeld","3.3.10","-256","256","2","0","left","right","left","1378.4409000072628","570.2491999836639","1378.4409000072628","2","psycho","1024","2","48000","-16","experiment","trafficlight.jpg","b_bedroom_pittsburgh_IMG_4079.jpg","999","odd","You need to indicate whether the pairing is old (seen in the first phase) by pressing RIGHT, or if it is a different configuration by pressing LEFT.<br />In other words, press RIGHT if you recognize the association, and select LEFT if you don't.","NA","8675.519299984444","7694.76179999765","137081.28859999124","NA","NA","7694.6098000044","137095.48799996264","8104.092399997171","137081.26659999834","140521.5557999909","141639.7662999807","NA","NA","139142.2154000029","137081.18889998877","139142.04700000118","Semantic link","20","36357.482300081756","27","yes","1024"
"75","75","1359.1475892878536","1359.1475892878536","white","psycho","psycho","psycho","0","uniform","1","undefined","left","1","NA","0","0","27","NA","NA","0","27","0","27","27","27","NA","NA","27","27","27","NA","Mon Feb 21 17:44:26 2022","The main experiment item","yes","1834.3611007294653","Memo_alone.osexp","D:\Users\install\SemLink","no","mono","no","18","no","black","no","no","768","psycho","27","27","D:\Users\install\SemLink\quickrun.csv","psycho","0","Lentiform Loewenfeld","3.3.10","256","-256","2","0","left","right","left","1698.6501999781467","570.2491999836639","1698.6501999781467","2","psycho","1024","2","48000","-16","experiment","bowlingpin.jpg","mountain-snow-walking-snow-mountain-winter-landscapeCC.jpg","999","odd","You need to indicate whether the pairing is old (seen in the first phase) by pressing RIGHT, or if it is a different configuration by pressing LEFT.<br />In other words, press RIGHT if you recognize the association, and select LEFT if you don't.","NA","8675.519299984444","7694.76179999765","142013.37319996674","NA","NA","7694.6098000044","142024.06919997884","8104.092399997171","142013.3512999746","145570.96209999872","146367.9235999589","NA","NA","143871.30190001335","142013.279900013","143871.1689999909","Semantic link","21","38056.1325000599","28","yes","1024"
"72.41379310344827","72.41379310344827","1398.3161172424122","1398.3161172424122","white","psycho","psycho","psycho","0","uniform","0","undefined","right","0","NA","0","0","28","NA","NA","0","28","0","28","28","28","NA","NA","28","28","28","NA","Mon Feb 21 17:44:26 2022","The main experiment item","yes","1857.0767520211384","Memo_alone.osexp","D:\Users\install\SemLink","no","mono","no","18","no","black","no","no","768","psycho","28","28","D:\Users\install\SemLink\quickrun.csv","psycho","1","Lentiform Loewenfeld","3.3.10","256","-256","2","0","None","right","None","2495.034899970051","570.2491999836639","2495.034899970051","2","psycho","1024","2","48000","-16","experiment","beachumbrella01.jpg","Stavronikita_BeachCC.jpg","999","odd","You need to indicate whether the pairing is old (seen in the first phase) by pressing RIGHT, or if it is a different configuration by pressing LEFT.<br />In other words, press RIGHT if you recognize the association, and select LEFT if you don't.","NA","8675.519299984444","7694.76179999765","146754.47189999977","NA","NA","7694.6098000044","146769.95769998757","8104.092399997171","146754.4498000061","151146.21019997867","151146.28069999162","NA","NA","148650.88570001535","146754.37849998707","148650.38369997637","Semantic link","21","40551.16740002995","29","yes","1024"
"70","70","1434.8736133348818","1434.8736133348818","white","psycho","psycho","psycho","0","uniform","0","undefined","right","0","NA","0","0","29","NA","NA","0","29","0","29","29","29","NA","NA","29","29","29","NA","Mon Feb 21 17:44:26 2022","The main experiment item","yes","2029.4098239630268","Memo_alone.osexp","D:\Users\install\SemLink","no","mono","no","18","no","black","no","no","768","psycho","29","29","D:\Users\install\SemLink\quickrun.csv","psycho","1","Lentiform Loewenfeld","3.3.10","-256","256","2","0","None","right","None","2495.0410000164993","570.2491999836639","2495.0410000164993","2","psycho","1024","2","48000","-16","experiment","shoppingcart.jpg","r_railroad_tunnel_outdoor_railroad_tunnel_000128.jpg","999","odd","You need to indicate whether the pairing is old (seen in the first phase) by pressing RIGHT, or if it is a different configuration by pressing LEFT.<br />In other words, press RIGHT if you recognize the association, and select LEFT if you don't.","NA","8675.519299984444","7694.76179999765","151453.0597999692","NA","NA","7694.6098000044","151466.79099998437","8104.092399997171","151453.03609996336","156008.50990001345","156008.5824999842","NA","NA","153513.15549999708","151452.94629997807","153512.79830001295","Semantic link","21","43046.20840004645","30","yes","1024"
"67.74193548387096","67.74193548387096","1469.0728193569569","1469.0728193569569","white","psycho","psycho","psycho","0","uniform","0","undefined","left","0","NA","0","0","30","NA","NA","0","30","0","30","30","30","NA","NA","30","30","30","NA","Mon Feb 21 17:44:26 2022","The main experiment item","yes","1874.2748782725096","Memo_alone.osexp","D:\Users\install\SemLink","no","mono","no","18","no","black","no","no","768","psycho","30","30","D:\Users\install\SemLink\quickrun.csv","psycho","0","Lentiform Loewenfeld","3.3.10","256","-256","2","0","None","right","None","2495.0490000192076","570.2491999836639","2495.0490000192076","2","psycho","1024","2","48000","-16","experiment","shoppingcart.jpg","s_savanna_kiangwest_savanna.jpg","999","odd","You need to indicate whether the pairing is old (seen in the first phase) by pressing RIGHT, or if it is a different configuration by pressing LEFT.<br />In other words, press RIGHT if you recognize the association, and select LEFT if you don't.","NA","8675.519299984444","7694.76179999765","156435.71589997737","NA","NA","7694.6098000044","156445.26319997385","8104.092399997171","156435.68819999928","160839.02959997067","160839.0988999745","NA","NA","158343.67689996725","156435.61139999656","158343.27050001593","Semantic link","21","45541.25740006566","31","yes","1024"
"65.625","65.625","1501.1343718779244","1501.1343718779244","white","psycho","psycho","psycho","0","uniform","0","undefined","left","0","NA","0","0","31","NA","NA","0","31","0","31","31","31","NA","NA","31","31","31","NA","Mon Feb 21 17:44:26 2022","The main experiment item","yes","1758.6103596932155","Memo_alone.osexp","D:\Users\install\SemLink","no","mono","no","18","no","black","no","no","768","psycho","31","31","D:\Users\install\SemLink\quickrun.csv","psycho","0","Lentiform Loewenfeld","3.3.10","256","-256","2","0","None","right","None","2495.042500027921","570.2491999836639","2495.042500027921","2","psycho","1024","2","48000","-16","experiment","martiniglass01b.jpg","b_bathroom_bothroom99.jpg","999","odd","You need to indicate whether the pairing is old (seen in the first phase) by pressing RIGHT, or if it is a different configuration by pressing LEFT.<br />In other words, press RIGHT if you recognize the association, and select LEFT if you don't.","NA","8675.519299984444","7694.76179999765","161140.35739999963","NA","NA","7694.6098000044","161164.59229995962","8104.092399997171","161140.3360000113","165433.3243999863","165433.39329998707","NA","NA","162937.94619996333","161140.23009996163","162937.78109998675","Semantic link","21","48036.29990009358","32","yes","1024"
